File: py_figures/XRD_data/11bmb_8032SRC001-020.xye
/*
# 11bmb_8032.fxye Bank 1
*/
0.5 879.262 42.4805
0.533947 1027.87 45.7891
0.567894 1092.34 47.3876
0.601841 934.699 43.9355
0.635787 795.698 40.2653
0.669734 739.192 39.0212
0.703681 659.218 37.0216
0.737628 642.552 36.1657
0.771575 582.324 34.6466
0.805522 532.306 33.2216
0.839469 582.076 34.2611
0.873416 531.92 33.0359
0.907362 524.899 33.1517
0.941309 501.023 31.816
0.975256 495.55 31.9717
1.009203 464.905 31.3034
1.04315 432.268 29.6497
1.077097 418.2551 29.3694
1.111044 437.487 30.23347
1.144991 348.096 26.5639
1.178937 376.951 27.8417
1.212884 368.939 27.7052
1.246831 326.47 25.764
1.280778 299.724 24.8269
1.314725 330.931 26.217
1.348672 306.767 25.0701
1.382619 330.153 25.9719
1.416566 308.641 25.34
1.450513 307.434 25.1775
1.484459 309.853 25.16393
1.518406 313.722 25.4507
1.552353 311.681 25.4395
1.5863 273.931 23.5949
1.620247 318.604 25.624
1.654194 297.798 24.9858
1.688141 290.345 24.1757
1.722088 285.313 24.2234
1.756034 329.367 26.19
1.789981 290.219 24.1252
1.823928 309.402 25.205
1.857875 272.275 23.8705
1.891822 247.953 22.3336
1.925769 260.972 23.1828
1.959716 257.031 23.1879
1.993663 267.085 23.2454
2.027609 242.678 20.306
2.061556 252.394 20.8621
2.095503 271.752 21.3555
2.12945 230.548 19.7788
2.163397 207.309 18.8794
2.197344 221.288 19.4034
2.231291 235.145 19.9257
2.265238 257.643 21.1038
2.299184 211.276 18.9108
2.333131 224.549 19.4852
2.367078 213.62 19.08818
2.401025 177.842 17.3961
2.434972 202.635 18.467
2.468919 209.786 18.8581
2.502866 207.282 18.7804
2.536813 229.134 19.5233
2.570759 221.688 19.471
2.604706 177.91 17.5699
2.638653 217.614 19.101
2.6726 212.417 18.9734
2.706547 198.514 18.6068
2.740494 197.752 18.3604
2.774441 216.522 19.2213
2.808388 205.291 18.8081
2.842334 197.233 18.22686
2.876281 184.301 17.6706
2.910228 208.047 18.9952
2.944175 215.136 18.897
2.978122 211.11 19.0241
3.012069 210.068 18.9866
3.046016 228.128 19.5417
3.079963 197.854 18.24321
3.113909 198.65 18.492
3.147856 231.745 19.831
3.181803 237.505 20.1809
3.21575 528.164 30.18
3.249697 225.004 19.7014
3.283644 205.878 18.6031
3.317591 212.358 19.0422
3.351538 210.173 19.0207
3.385484 206.361 18.5776
3.419431 202.558 18.6212
3.453378 223.462 19.6203
3.487325 217.869 19.1423
3.521272 206.403 18.6167
3.555219 206.811 18.8142
3.589166 229.654 19.5691
3.623113 225.342 19.6545
3.657059 241.605 20.4831
3.691006 234.708 19.8399
3.724953 265.558 21.204
3.7589 236.76 20.2461
3.792847 216.515 19.0562
3.826794 254.796 20.7489
3.860741 191.607 18.1365
3.894688 232.973 19.7193
3.928634 254.661 20.7495
3.962581 250.318 20.6504
3.996528 249.377 20.3893
4.030475 298.792 20.1396
4.064422 247.72 18.5143
4.098369 256.284 18.7295
4.132316 242.155 18.2051
4.166263 261.551 19.0072
4.200209 316.501 20.9194
4.234156 287.434 19.7703
4.268103 337.463 21.497
4.30205 319.945 21.0491
4.335997 412.146 23.6637
4.369944 1596.53 46.7927
4.403891 950.557 36.3954
4.437838 376.929 22.4729
4.471784 376.186 22.844
4.505731 341.995 21.8793
4.539678 297.236 19.9311
4.573625 291.435 19.9231
4.607572 312.896 20.8105
4.641519 317.473 20.6684
4.675466 347.318 21.75451
4.709413 401.881 23.5816
4.743359 650.855 29.4312
4.777306 2011.99 52.3176
4.811253 956.736 36.4782
4.8452 855.437 34.0257
4.879147 802.604 33.1499
4.913094 814.931 33.6592
4.947041 890.906 34.9017
4.980988 1710.99 48.369
5.014934 851.559 34.4066
5.048881 693.542 30.9387
5.082828 649.294 29.7181
5.116775 596.298 28.7003
5.150722 592.934 28.678
5.184669 590.31 28.3366
5.218616 610.147 28.8987
5.252563 556.129 27.837
5.286509 576.799 27.9234
5.320456 554.219 27.6755
5.354403 555.991 27.9212
5.38835 549.861 27.12306
5.422297 599.77 28.7807
5.456244 591.891 28.7228
5.490191 664.606 29.9066
5.524138 731.802 31.8135
5.558084 1282.24 42.2853
5.592031 760.755 31.9356
5.625978 628.738 29.3268
5.659925 581.418 28.5527
5.693872 583.494 27.9519
5.727819 554.408 27.4872
5.761766 552.637 27.7347
5.795713 518.489 26.4057
5.829659 501.267 26.2061
5.863606 542.594 27.5166
5.897553 550.014 27.5299
5.9315 539.369 27.1256
5.965447 488.816 26.0232
5.999394 514.172 26.6626
6.033341 510.812 24.1985
6.067288 527.087 24.8142
6.101234 568.586 25.9195
6.135181 533.539 24.8126
6.169128 526.809 24.851
6.203075 540.704 25.1701
6.237022 530.942 24.6178
6.270969 560.977 25.4868
6.304916 498.293 24.0713
6.338863 544.771 24.7848
6.372809 531.747 24.7295
6.406756 577.762 26.2312
6.440703 638.187 27.0166
6.47465 1152.81 36.4958
6.508597 748.306 29.6473
6.542544 534.914 24.6609
6.576491 514.103 24.4379
6.610438 514.861 24.54
6.644384 476.196 23.2557
6.678331 484.738 23.4424
6.712278 472.233 23.515
6.746225 485.615 23.5205
6.780172 485.84 23.6314
6.814119 466.562 23.1277
6.848066 436.745 22.4445
6.882013 450.508 22.7854
6.915959 455.696 23.032
6.949906 432.478 22.4882
6.983853 433.5 22.37
7.0178 443.313 22.77095
7.051747 442.081 22.8337
7.085694 433.119 22.34041
7.119641 431.779 22.46022
7.153588 407.797 21.91104
7.187534 414.461 21.7061
7.221481 419.289 21.9994
7.255428 394.295 21.3972
7.289375 394.336 21.1682
7.323322 402.875 21.5574
7.357269 414.79 22.054
7.391216 1368.62 39.5083
7.425163 405.734 21.7214
7.459109 388.571 21.45
7.493056 369.063 20.486
7.527003 420.754 21.9729
7.56095 460.789 23.0941
7.594897 424.442 21.89433
7.628844 388.476 21.1687
7.662791 363.154 20.5523
7.696738 338.905 19.59509
7.730684 341.925 19.8509
7.764631 343.98 20.0507
7.798578 344.272 19.962
7.832525 303.103 18.6654
7.866472 331.041 19.5865
7.900419 312.633 19.0976
7.934366 308.497 18.8163
7.968313 317.72 19.1033
8.002259 318.525 18.2599
8.036206 303.12 17.6346
8.070153 308.152 17.9099
8.1041 330.814 18.67277
8.138047 309.388 17.6905
8.171994 320.668 18.1474
8.205941 311.248 17.9702
8.239888 306.404 17.4888
8.273834 302.27 17.6429
8.307781 365.884 19.4696
8.341728 617.091 24.8729
8.375675 1358.52 37.3352
8.409622 573.593 24.528
8.443569 500.081 22.4388
8.477516 344.135 18.6293
8.511463 335.882 18.69859
8.545409 334.923 18.3912
8.579356 381.379 19.7668
8.613303 422.978 20.9634
8.64725 458.954 21.6264
8.681197 737.013 27.3359
8.715144 1940.1 44.9267
8.749091 27202.4 168.213
8.783038 5189.45 72.8003
8.816984 1171.89 34.8538
8.850931 2089.67 46.7399
8.884878 776.565 28.0931
8.918825 398.758 20.305
8.952772 333.064 18.5666
8.986719 348.634 18.86601
9.020666 321.419 18.1787
9.054613 304.645 17.9057
9.088559 285.199 16.9301
9.122506 274.239 16.8478
9.156453 292.076 17.4755
9.1904 281.356 16.9423
9.224347 267.382 16.6061
9.258294 322.572 18.4618
9.292241 272.805 16.6241
9.326188 265.086 16.4827
9.360134 256.862 16.2721
9.394081 247.198 15.7601
9.428028 256.705 16.2079
9.461975 271.622 16.7795
9.495922 263.587 16.3096
9.529869 309.182 17.7702
9.563816 307.713 17.7817
9.597763 293.934 17.2775
9.631709 291.702 17.1741
9.665656 297.524 17.5374
9.699603 291.656 17.3774
9.73355 286.152 17.1571
9.767497 337.59 18.7662
9.801444 296.376 17.4662
9.835391 327.023 18.2944
9.869338 337.391 18.68148
9.903284 418.696 21.0067
9.937231 510.744 22.7339
9.971178 1562.95 40.1822
10.0051 1157.09 32.4247
10.0391 1788.89 39.6289
10.073 5993.51 73.124
10.107 13764.3 111.856
10.1409 11878 102.392
10.1749 3693.14 57.5489
10.2088 2391.52 46.6307
10.2428 1405.09 35.0497
10.2767 822.179 27.0949
10.3106 404.653 19.1321
10.3446 342.43 17.30332
10.3785 332.108 17.1917
10.4125 308.719 16.6766
10.4464 328.051 17.0966
10.4804 345.785 17.4534
10.5143 428.1 19.5505
10.5483 312.335 16.6098
10.5822 317.707 16.8398
10.6162 311.001 16.7144
10.6501 265.262 15.5017
10.6841 254.578 15.0174
10.718 242.352 14.8351
10.752 239.912 14.7901
10.7859 240.335 14.5299
10.81985 260.685 15.274
10.8538 235.86 14.7053
10.8877 248.708 14.7584
10.9217 243.554 14.655
10.9556 240.234 14.7147
10.9896 244.957 14.5696
11.0235 291.102 16.0758
11.0575 255.168 15.1487
11.0914 273.447 15.4851
11.1254 354.339 17.7907
11.1593 283.346 15.9409
11.1933 229.039 14.1746
11.2272 232.262 14.2637
11.2612 229.06 14.3606
11.2951 217.616 13.8628
11.3291 249.339 14.867
11.363 212.205 13.8079
11.3969 202.283 13.3929
11.4309 211.015 13.64373
11.4648 224.475 14.2448
11.4988 214.966 13.8442
11.5327 223.811 14.0656
11.5667 209.269 13.7621
11.6006 210.522 13.7578
11.6346 215.96 13.819
11.6685 196.345 13.2303
11.7025 213.312 13.93986
11.7364 222.708 13.983
11.7704 203.511 13.5203
11.8043 216.43 14.0174
11.8383 225.857 13.9744
11.8722 231.502 14.3821
11.90615 221.783 14.0991
11.9401 227.1915 14.1349
11.974 236.391 14.45029
12.008 227.609 13.6694
12.0419 265.216 14.4168
12.0759 226.382 13.4756
12.1098 234.137 13.7479
12.1438 248.686 14.0215
12.1777 214.869 13.0966
12.2117 208.898 13.0017
12.2456 216.558 13.0878
12.2796 210.008 12.8714
12.3135 311.628 15.9071
12.3475 225.816 13.4271
12.3814 202.266 12.6569
12.4154 207.061 12.8943
12.4493 229.476 13.576
12.4832 211.223 12.9619
12.5172 216.901 13.1912
12.5511 217.172 13.2868
12.5851 317.92 16.0026
12.619 351.615 16.8971
12.653 341.513 16.7038
12.6869 359.082 16.8978
12.7209 385.657 17.5856
12.7548 305.714 15.7473
12.7888 280.768 14.83298
12.8227 267.67 14.6833
12.8567 288.341 15.4126
12.8906 324.342 15.9901
12.9246 388.701 17.66794
12.9585 396.439 18.0107
12.99245 415.513 18.1226
13.0264 349.156 16.6835
13.0603 333.718 16.3379
13.0943 403.781 17.8867
13.1282 529.443 20.52552
13.1622 921.876 27.2351
13.1961 622.295 22.23235
13.2301 365.207 16.9639
13.264 320.276 16.03358
13.298 371.827 17.1898
13.3319 343.213 16.4851
13.3659 283.094 15.1028
13.3998 284.627 15.1964
13.4338 269.135 14.60212
13.4677 278.9668 15.054
13.5017 279.899 15.1143
13.5356 259.0045 14.3656
13.5695 281.681 15.1219
13.6035 237.55 13.9184
13.6374 247.284 13.96
13.6714 265.009 14.532
13.7053 319.016 16.1849
13.7393 246.036 13.9996
13.7732 268.215 14.7006
13.8072 262.055 14.5576
13.8411 290.083 15.1613
13.8751 306.124 15.6259
13.909 340.377 16.60817
13.943 401.844 17.85235
13.9769 394.925 17.7469
14.0109 666.539 22.1491
14.0448 344.243 15.69811
14.07875 358.327 16.1335
14.1127 339.725 15.7804
14.1466 385.549 16.6745
14.1806 455.633 18.0681
14.2145 611.602 21.10811
14.2485 1171.39 29.161
14.2824 4802.96 58.76521
14.3164 9172.7 81.7478
14.3503 4841.26 59.4974
14.3843 1524.48 33.1395
14.4182 876.578 25.3011
14.4522 748.756 23.5401
14.4861 925.19 25.8165
14.5201 720.105 22.8929
14.554 369.366 16.5929
14.588 352.165 15.86355
14.6219 312.2 15.0762
14.6558 274.386 14.2375
14.6898 284.805 14.2974
14.7237 264.321 13.8423
14.7577 244.916 13.4495
14.7916 267.448 13.8065
14.8256 256.494 13.5913
14.8595 259.603 13.8238
14.8935 306.559 14.7146
14.9274 475.983 18.5026
14.9614 819.458 24.58823
14.9953 784.995 23.81402
15.0293 340.668 15.70733
15.0632 269.593 14.10132
15.0972 234.993 13.0007
15.1311 270.482 13.92082
15.16505 256.271 13.6556
15.199 250.589 13.4644
15.2329 262.683 13.7043
15.2669 251.89 13.5068
15.3008 268.456 14.0866
15.3348 239.732 13.1588
15.3687 240.167 13.2492
15.4027 234.427 13.113
15.4366 232.472 12.9786
15.4706 239.26 13.2047
15.5045 216.573 12.63504
15.5385 220.961 12.5358
15.5724 230.394 12.9328
15.6064 238.089 13.3133
15.6403 222.535 12.531
15.6743 213.149 12.4363
15.7082 215.759 12.6679
15.7421 225.809 12.7011
15.7761 206.839 12.3199
15.81 216.803 12.6512
15.844 213.78 12.3386
15.8779 206.8265 12.2016
15.9119 211.177 12.3786
15.9458 218.748 12.5438
15.9798 219.411 12.5393
16.0137 240.293 12.7398
16.0477 241.833 12.7098
16.0816 227.895 12.2415
16.1156 237.434 12.5825
16.1495 223.288 12.2435
16.1835 259.076 13.0452
16.2174 239.9 12.6758
16.25135 261.473 13.3171
16.2853 266.732 13.2703
16.3192 226.383 12.2944
16.3532 229.816 12.4115
16.3871 229.384 12.22985
16.4211 257.136 13.0595
16.455 245.652 12.9214
16.489 260.155 13.0537
16.5229 220.99 12.1118
16.5569 271.274 13.4688
16.5908 369.106 15.5606
16.6248 344.128 15.1371
16.6587 593.293 20.0352
16.6927 416.532 16.5456
16.7266 688.114 21.3607
16.7606 1220.13 28.648
16.7945 2034.14 36.5108
16.8284 2774.65 42.8777
16.8624 1132.06 27.5542
16.8963 592.813 19.8082
16.9303 539.365 18.8073
16.9642 495.29 18.2041
16.9982 516.893 18.5352
17.0321 502.956 18.1734
17.0661 387.479 16.0327
17.1 275.185 13.5825
17.134 284.707 13.6236
17.1679 286.568 13.7722
17.2019 396.342 16.3221
17.2358 433.469 16.8429
17.2698 419.371 16.6949
17.3037 379.026 16.0327
17.33765 363.779 15.3972
17.3716 339.664 15.1097
17.4055 367.852 15.8461
17.4395 398.919 16.19691
17.4734 488.442 18.0471
17.5074 868.484 24.2336
17.5413 3181.05 45.7071
17.5753 1672.52 33.3704
17.6092 1291.64 29.6108
17.6432 469.741 17.541
17.6771 384.951 15.9366
17.7111 351.157 15.3547
17.745 483.271 17.8319
17.779 474.118 17.6234
17.8129 342.371 15.0865
17.8469 271.437 13.36835
17.8808 261.174 13.1263
17.9147 243.706 12.7706
17.9487 263.933 13.3529
17.9826 276.608 13.5253
18.0166 262.174 13.19503
18.0505 286.036 13.8353
18.0845 305.787 14.1615
18.1184 572.17 19.51373
18.1524 394.238 16.2633
18.1863 332.68 14.7044
18.2203 274.66 13.4931
18.2542 253.817 13.0701
18.2882 222.709 12.0359
18.3221 258.178 13.1273
18.3561 239.235 12.8085
18.39 232.604 12.3675
18.42395 219.22 12.1247
18.4579 227.622 12.4623
18.4918 235.928 12.4339
18.5258 215.504 11.968
18.5597 214.114 12.0094
18.5937 247.394 12.8022
18.6276 213.392 11.8893
18.6616 210.081 11.8774
18.6955 219.996 12.029
18.7295 214.403 11.8582
18.7634 237.741 12.58333
18.7974 228.501 12.2996
18.8313 206.356 11.6913
18.8653 204.281 11.72501
18.8992 215.681 12.0433
18.9332 228.744 12.2406
18.9671 187.308 11.209
19.001 223.204 12.3426
19.035 213.892 11.7598
19.0689 226.213 12.23763
19.1029 271.231 13.4601
19.1368 311.596 14.2276
19.1708 348.955 15.184
19.2047 247.719 12.86317
19.2387 228.237 12.1662
19.2726 280.31 13.6572
19.3066 258.529 13.2741
19.3405 248.593 12.8223
19.3745 233.016 12.4579
19.4084 271.044 13.556
19.4424 256.167 12.9879
19.4763 429.385 16.8617
19.51025 323.009 14.73666
19.5442 235.257 12.4211
19.5781 225.778 12.2332
19.6121 236.717 12.5896
19.646 247.575 12.8434
19.68 244.101 12.6493
19.7139 220.665 12.1852
19.7479 212.072 11.882
19.7818 241.375 12.5715
19.8158 217.809 12.0736
19.8497 203.664 11.7231
19.8837 209.365 11.725
19.9176 212.347 11.8534
19.9516 236.094 12.6071
19.9855 215.212 11.7827
20.0195 258.694 13.0338
20.0534 238.65 12.6283
20.0873 253.746 12.8194
20.1213 251.997 12.9071
20.1552 283.298 13.7329
20.1892 327.251 14.58
20.2231 453.149 17.3804
20.2571 442.334 17.2962
20.291 757.748 22.4033
20.325 841.414 23.7089
20.3589 1423.84 31.1256
20.3929 480.266 17.7759
20.4268 372.606 15.7572
20.4608 363.485 15.60788
20.4947 314.129 14.34
20.5287 309.092 14.3433
20.5626 288.403 13.9255
20.59655 263.731 13.2326
20.6305 241.26 12.5878
20.6644 225.425 12.2466
20.6984 225.609 12.3132
20.7323 227.072 12.25218
20.7663 238.882 12.6406
20.8002 219.124 12.0984
20.8342 238.252 12.5215
20.8681 228.22 12.3561
20.9021 239.99 12.6748
20.936 209.968 11.6778
20.97 209.577 11.7897
21.0039 235.536 12.5832
21.0379 229.896 12.2029
21.0718 256.53 13.0724
21.1058 233.1 12.56698
21.1397 232.116 12.3141
21.1736 228.41 12.2873
21.2076 236.386 12.6512
21.2415 244.549 12.7461
21.2755 244.13 12.7193
21.3094 263.152 13.3322
21.3434 246.541 12.7406
21.3773 250.048 12.8211
21.4113 251.801 13.0247
21.4452 244.069 12.7595
21.4792 241.736 12.6898
21.5131 255.977 13.1705
21.5471 240.661 12.6844
21.581 251.57 12.9692
21.615 261.12 13.214
21.6489 273.35 13.544
21.68285 265.746 13.2133
21.7168 248.838 12.9389
21.7507 264.019 13.2825
21.7847 253.684 12.901
21.8186 283.114 13.7263
21.8526 243.664 12.7733
21.8865 259.84 12.97
21.9205 290.747 13.8188
21.9544 340.284 15.0963
21.9884 341.114 14.8636
22.0223 368.421 15.5804
22.0563 450.418 17.4174
22.0902 553.317 19.0099
22.1242 885.705 24.1693
22.1581 823.535 23.5928
22.1921 605.983 19.96276
22.226 383.871 15.9778
22.2599 339.567 15.1186
22.2939 313.357 14.3843
22.3278 338.816 15.0237
22.3618 321.246 14.6845
22.3957 316.232 14.5226
22.4297 369.799 15.6501
22.4636 340.906 15.1686
22.4976 300.174 14.1409
22.5315 352.815 15.2297
22.5655 340.606 15.1123
22.5994 441.759 17.271
22.6334 818.865 23.2207
22.6673 914.416 24.7071
22.7013 1319.52 29.9852
22.7352 1720.66 33.6707
22.76915 1742.39 34.0502
22.8031 879.676 24.3478
22.837 532.442 18.5749
22.871 405.405 16.3586
22.9049 386.254 16.0157
22.9389 391.77 15.9196
22.9728 396.423 16.1629
23.0068 355.49 15.4325
23.0407 364.655 15.3675
23.0747 348.944 15.1963
23.1086 316.515 14.6056
23.1426 335.711 14.8698
23.1765 349.103 15.243
23.2105 330.149 15.0371
23.2444 304.283 14.2629
23.2784 306.793 14.2426
23.3123 258.332 13.2033
23.3462 246.545 12.779
23.3802 250.896 12.9013
23.4141 248.28 12.8648
23.4481 233.642 12.4858
23.482 234.915 12.4342
23.516 240.437 12.6345
23.5499 233.102 12.5638
23.5839 266.805 13.2024
23.6178 236.528 12.5907
23.6518 253.354 13.1463
23.6857 214.539 11.8488
23.7197 246.315 12.8473
23.7536 220.237 12.20264
23.7876 246.156 12.666
23.8215 279.268 13.6025
23.85545 249.04 12.8638
23.8894 224.983 11.9754
23.9233 223.047 12.0796
23.9573 235.542 12.5252
23.9912 250.305 12.7086
24.0252 245.249 12.6977
24.0591 242.936 12.8297
24.0931 243.674 12.5931
24.127 245.039 12.772
24.161 245.705 12.8641
24.1949 272.399 13.4797
24.2289 307.78 14.2823
24.2628 317.584 14.5721
24.2968 315.717 14.5062
24.3307 279.068 13.576
24.3647 254.662 13.047
24.3986 257.116 13.2086
24.4325 248.74 12.8493
24.4665 236.628 12.58723
24.5004 236.54 12.6772
24.5344 234.526 12.3936
24.5683 232.372 12.4747
24.6023 253.541 13.119
24.6362 235.839 12.4266
24.6702 247.324 12.7891
24.7041 259.409 13.2672
24.7381 278.105 13.4531
24.772 299.752 14.0708
24.806 330.41 14.8534
24.8399 460.537 17.3263
24.8739 980.225 25.4252
24.9078 1186.96 28.1732
24.94175 1272.42 28.7626
24.9757 839.001 23.4773
25.0096 617.791 20.369
25.0436 384.8253 15.9084
25.0775 323.931 14.6734
25.1115 341.381 15.1119
25.1454 290.163 13.982
25.1794 291.703 13.9324
25.2133 323.395 14.7444
25.2473 331.575 14.9249
25.2812 316.251 14.4722
25.3152 323.808 14.696
25.3491 280.369 13.8433
25.3831 271.287 13.4555
25.417 277.892 13.6804
25.451 273.381 13.6325
25.4849 251.155 12.8647
25.5188 241.269 12.6843
25.5528 262.78 13.3307
25.5867 268.483 13.244
25.6207 241.438 12.6722
25.6546 257.469 13.1089
25.6886 259.33 13.0357
25.7225 219.8 12.10495
25.7565 236.104 12.5654
25.7904 214.979 11.7779
25.8244 254.803 12.968
25.8583 248.874 12.8924
25.8923 219.0912 11.8789
25.9262 231.164 12.2722
25.9602 216.058 12.067
25.9941 227.152 12.2426
26.02805 224.604 12.15641
26.062 218.807 12.12932
26.0959 215.189 11.9711
26.1299 224.108 12.2244
26.1638 229.21 12.4046
26.1978 214.524 11.9723
26.2317 239.391 12.5976
26.2657 242.658 12.7757
26.2996 273.795 13.5951
26.3336 324.527 14.59099
26.3675 381.914 16.0356
26.4015 436.04 17.1674
26.4354 442.958 17.0289
26.4694 484.836 17.9688
26.5033 472.484 17.8788
26.5373 379.653 15.7192
26.5712 293.362 13.9265
26.6051 241.365 12.7622
26.6391 229.204 12.1927
26.673 226.82 12.2263
26.707 216.43 12.0468
26.7409 236.144 12.4183
26.7749 238.276 12.5459
26.8088 256.404 13.128
26.8428 257.378 12.9271
26.8767 233.603 12.3775
26.9107 227.273 12.2715
26.9446 247.962 12.78181
26.9786 227.344 12.1869
27.0125 214.252 11.93775
27.0465 231.842 12.4126
27.0804 207.964 11.7218
27.11435 190.746 11.3247
27.1483 196.651 11.5502
27.1822 209.93 11.778
27.2162 228.834 12.4197
27.2501 216.004 12.0468
27.2841 236.725 12.5297
27.318 239.987 12.6737
27.352 270.657 13.5887
27.3859 290.828 13.8424
27.4199 223.265 12.1617
27.4538 226.857 12.43
27.4878 213.869 11.82002
27.5217 201.992 11.5284
27.5557 212.755 11.9722
27.5896 215.843 11.8584
27.6236 187.259 11.1661
27.6575 180.166 10.8575
27.6914 199.028 11.3285
27.7254 185.584 11.0304
27.7593 199.438 11.54357
27.7933 161.945 10.2358
27.8272 191.145 11.1982
27.8612 203.268 11.6517
27.8951 197.14 11.3685
27.9291 188.77 11.1433
27.963 211.811 11.941
27.997 200.442 11.5818
28.0309 183.476 11.4801
28.0649 198.221 12.0595
28.0988 203.526 12.2377
28.1328 194.311 11.8319
28.1667 176.224 11.2635
28.20065 175.925 11.40801
28.2346 190.807 11.7418
28.2685 193.954 11.9185
28.3025 191.308 11.9605
28.3364 182.73 11.4413
28.3704 184.65 11.5862
28.4043 200.463 12.1813
28.4383 183.694 11.4136
28.4722 183.893 11.4543
28.5062 183.899 11.516
28.5401 166.366 10.8116
28.5741 185.581 11.49486
28.608 194.423 11.9288
28.642 182.801 11.3468
28.6759 211.659 12.3192
28.7099 202.23 12.1229
28.7438 211.118 12.2118
28.7777 250.241 13.38901
28.8117 389.812 16.9041
28.8456 398.766 17.01896
28.8796 406.496 17.0653
28.9135 370.357 16.32996
28.9475 260.282 13.81121
28.9814 224.464 12.6767
29.0154 221.376 12.6932
29.0493 199.447 12.1303
29.0833 224.335 12.61016
29.1172 214.382 12.5083
29.1512 229.544 12.9534
29.1851 244.184 13.1962
29.2191 287.121 14.482
29.253 329.239 15.6432
29.28695 305.104 14.8225
29.3209 257.811 13.6533
29.3548 216.395 12.6232
29.3888 213.149 12.2873
29.4227 195.227 11.7975
29.4567 194.859 11.8941
29.4906 186.254 11.4445
29.5246 206.833 12.1292
29.5585 199.802 12.0551
29.5925 196.79 11.7673
29.6264 195.504 11.8053
29.6604 182.753 11.43656
29.6943 195.525 11.7758
29.7283 174.804 11.1608
29.7622 191.986 11.7217
29.7962 206.295 12.1381
29.8301 197.067 11.8782
29.864 183.281 11.5571
29.898 183.731 11.5876
29.9319 196.032 11.8338
29.9659 186.444 11.587
29.9998 184.209 12.21871
30.0338 202.166 12.5998
30.0677 220.077 13.3173
30.1017 247.618 14.1832
30.1356 279.719 14.7409
30.1696 305.477 15.6492
30.2035 375.154 17.53799
30.2375 357.975 16.7884
30.2714 355.391 16.8663
30.3054 277.043 15.0312
30.3393 244.725 13.777
30.37325 228.741 13.4855
30.4072 217.184 13.2421
30.4411 222.275 13.217
30.4751 219.116 13.1725
30.509 251.341 14.2331
30.543 269.551 14.5567
30.5769 358.943 16.8025
30.6109 543.073 20.9183
30.6448 628.984 22.2084
30.6788 526.359 20.3084
30.7127 446.642 18.8748
30.7467 377.993 17.2122
30.7806 288.604 15.0022
30.8146 252.009 14.2624
30.8485 229.54 13.5905
30.8825 197.679 12.44636
30.9164 217.988 13.1402
30.9503 231.495 13.7323
30.9843 219.787 13.1835
31.0182 232.74 13.6392
31.0522 234.971 13.7668
31.0861 217.762 13.0405
31.1201 189.28 12.309
31.154 202.761 12.72839
31.188 194.39 12.343
31.2219 196.95 12.5163
31.2559 195.075 12.5479
31.2898 204.559 12.6697
31.3238 187.498 12.1824
31.3577 173.908 11.8524
31.3917 190.891 12.1937
31.4256 208.984 12.8708
31.45955 193.121 12.5375
31.4935 186.479 12.165
31.5274 174.363 11.7579
31.5614 220.496 13.2322
31.5953 207.397 12.8134
31.6293 193.209 12.3039
31.6632 206.533 12.8309
31.6972 195.508 12.4973
31.7311 189.199 12.0916
31.7651 184.572 12.02957
31.799 214.486 13.1657
31.833 227.573 13.37915
31.8669 211.806 13.0098
31.9009 195.248 12.5542
31.9348 207.865 12.7336
31.9688 204.1019 12.8093
32.0027 194.163 13.1589
32.0366 207.51 13.353
32.0706 190.719 12.9197
32.1045 217.449 13.9258
32.1385 227.605 14.1195
32.1724 231.819 14.3343
32.2064 235.977 14.6653
32.2403 259.471 15.0713
32.2743 275.856 15.63547
32.3082 267.839 15.5288
32.3422 295.877 16.0701
32.3761 312.31 16.59278
32.4101 307.162 16.5821
32.444 266.237 15.3135
32.478 248.014 14.7187
32.5119 240.565 14.5851
32.54585 207.338 13.4469
32.5798 215.385 13.7651
32.6137 201.448 13.3148
32.6477 199.405 13.1537
32.6816 217.604 13.7784
32.7156 244.965 14.7337
32.7495 223.569 14.0662
32.7835 205.487 13.32251
32.8174 220.733 13.9827
32.8514 201.879 13.4245
32.8853 188.836 12.81128
32.9193 208.206 13.5637
32.9532 192.139 13.1327
32.9872 190.854 12.8404
33.0211 198.766 13.183
33.0551 177.828 12.6725
33.089 190.692 12.7979
33.1229 219.778 13.9744
33.1569 199.15 13.3272
33.1908 194.213 12.971
33.2248 199.243 13.281
33.2587 207.735 13.6315
33.2927 206.335 13.3843
33.3266 197.69 13.1139
33.3606 216.615 13.8583
33.3945 206.452 13.4246
33.4285 211.399 13.5701
33.4624 206.347 13.4537
33.4964 258.114 15.0417
33.5303 249.977 14.7051
33.5643 264.629 15.26651
33.5982 262.377 15.2126
33.63215 230.054 14.0462
33.6661 228.694 14.1397
33.7 208.335 13.6708
33.734 216.415 13.6661
33.7679 226.642 14.1502
33.8019 238.811 14.5464
33.8358 232.279 14.1242
33.8698 268.672 15.3935
33.9037 278.96 15.7144
33.9377 280.293 15.6009
33.9716 299.59 16.2198
34.0056 332.864 18.2393
34.0395 320.439 17.58222
34.0735 271.786 16.3316
34.1074 257.606 15.8664
34.1414 226.045 14.864
34.1753 222.183 14.6896
34.2092 218.606 14.7692
34.2432 211.422 14.3678
34.2771 226.722 14.8379
34.3111 228.511 14.9727
34.345 221.39 14.6208
34.379 230.276 14.9635
34.4129 227.305 14.97354
34.4469 198.007 13.8751
34.4808 220.942 14.5795
34.5148 204.247 14.173
34.5487 192.081 13.6677
34.5827 200.776 13.8098
34.6166 201.553 14.0873
34.6506 195.315 13.9527
34.6845 200.371 13.9891
34.71845 216.134 14.5606
34.7524 195.297 13.9268
34.7863 190.512 13.5313
34.8203 207.756 14.2564
34.8542 192.466 13.8312
34.8882 190.696 13.41399
34.9221 221.603 14.6877
34.9561 197.525 14.0304
34.99 203.769 14.0455
35.024 214.827 14.43295
35.0579 225.358 14.9741
35.0919 205.199 14.0159
35.1258 234.16 15.0658
35.1598 228.696 15.0335
35.1937 202.909 14.0697
35.2277 215.337 14.5359
35.2616 202.309 14.0968
35.2955 210.48 14.3917
35.3295 185.257 13.3937
35.3634 191.756 13.7123
35.3974 200.574 13.9215
35.4313 212.892 14.352
35.4653 207.526 14.215
35.4992 228.478 15.0433
35.5332 268.592 16.0863
35.5671 205.091 14.162
35.6011 219.826 14.7562
35.635 223.105 14.61106
35.669 228.185 15.0708
35.7029 181.9872 13.3999
35.7369 211.655 14.2219
35.7708 185.982 13.4781
35.80475 191.411 13.7375
35.8387 194.883 13.6744
35.8726 170.449 12.8783
35.9066 213.611 14.5418
35.9405 208.426 14.1932
35.9745 186.55 13.4636
36.0084 188.685 14.40681
36.0424 204.386 14.906
36.0763 180.606 14.0041
36.1103 182.994 14.1784
36.1442 186.261 14.1777
36.1782 191.015 14.23052
36.2121 162.881 13.31872
36.2461 181.605 14.104
36.28 181.369 13.95963
36.314 186.963 14.17654
36.3479 176.732 13.9312
36.3818 194.643 14.4562
36.4158 191.581 14.44895
36.4497 198.674 14.8541
36.4837 222.907 15.4531
36.5176 216.602 15.5012
36.5516 206.179 15.1305
36.5855 216.686 15.2211
36.6195 219.348 15.3906
36.6534 208.761 15.2554
36.6874 205.284 14.7585
36.7213 225.997 15.668
36.7553 205.441 14.9768
36.7892 198.859 14.5646
36.8232 195.728 14.521
36.8571 195.677 14.7681
36.89105 191.615 14.3491
36.925 214.375 15.2499
36.9589 223.408 15.72025
36.9929 239.378 16.151
37.0268 260.147 16.74924
37.0608 268.284 17.1072
37.0947 267.01 17.0346
37.1287 224.837 15.5776
37.1626 212.971 15.2383
37.1966 199.416 14.7961
37.2305 187.844 14.1367
37.2645 183.708 14.0304
37.2984 205.059 15.0003
37.3324 195.444 14.4315
37.3663 179.326 13.9896
37.4003 167.127 13.5913
37.4342 185.771 14.04962
37.4681 176.245 13.8192
37.5021 191.396 14.5465
37.536 187.433 14.0989
37.57 175.79 13.7879
37.6039 172.6 13.7548
37.6379 188.157 14.08494
37.6718 192.821 14.4993
37.7058 194.483 14.6506
37.7397 166.795 13.3182
37.7737 199.468 14.7238
37.8076 182.259 14.1712
37.8416 183.77 14.0891
37.8755 178.774 13.9027
37.9095 195.15 14.71189
37.9434 193.974 14.591
37.97735 196.0951 14.6064
38.0113 175.921 15.0761
38.0452 187.46 15.5092
38.0792 195.856 15.78679
38.1131 190.422 15.6684
38.1471 189.655 15.7263
38.181 192.757 15.6278
38.215 200.661 16.0391
38.2489 190.038 15.7955
38.2829 186.92 15.4156
38.3168 194.649 15.819
38.3508 201.9079 16.1855
38.3847 213.214 16.4832
38.4187 230.622 17.2033
38.4526 258.877 18.3744
38.4866 288.565 18.9953
38.5205 289.26 19.2934
38.5544 254.664 18.3883
38.5884 257.321 18.03621
38.6223 212.362 16.5433
38.6563 201.161 16.1376
38.6902 196.111 15.7817
38.7242 182.087 15.3562
38.7581 202.548 16.3432
38.7921 174.566 14.8842
38.826 176.31 15.0534
38.86 165.958 14.7068
38.8939 178.116 15.2672
38.9279 186.827 15.4827
38.9618 162.383 14.46108
38.9958 193.616 15.9005
39.0297 193.344 15.8311
39.06365 211.736 16.5595
39.0976 174.11 15.0939
39.1315 183.047 15.2736
39.1655 164.855 14.429
39.1994 155.938 14.1572
39.2334 151.723 13.9295
39.2673 172.118 14.8447
39.3013 171.274 14.8511
39.3352 188.46 15.41836
39.3692 165.267 14.5491
39.4031 202.622 16.3547
39.4371 183.402 15.0918
39.471 192.481 15.7019
39.505 199.446 16.1179
39.5389 198.323 15.9441
39.5729 186.116 15.4818
39.6068 196.687 15.9673
39.6407 176.602 14.8846
39.6747 152.232 13.8451
39.7086 167.249 14.8776
39.7426 192.641 15.5855
39.7765 173.883 14.9029
39.8105 189.596 15.6966
39.8444 160.4 14.4076
39.8784 153.338 13.9865
39.9123 170.713 14.9441
39.9463 182.449 15.4101
39.9802 181.779 15.2884
40.0142 180.66 16.7364
40.0481 156.043 15.73316
40.0821 173.658 16.4158
40.116 157.88 15.6704
40.14995 187.301 17.2097
40.1839 171.835 16.3341
40.2178 185.281 17.1094
40.2518 186.963 17.2072
40.2857 175.154 16.3461
40.3197 162.71 15.9087
40.3536 160.581 16.0083
40.3876 163.802 15.9932
40.4215 182.291 16.668
40.4555 142.999 14.9502
40.4894 148.48 15.1083
40.5234 158.821 15.67
40.5573 182.536 16.9179
40.5913 155.313 15.4995
40.6252 168.81 16.21
40.6592 140.555 14.975
40.6931 173.303 16.62937
40.727 163.075 15.708
40.761 182.681 16.9773
40.7949 176.91 16.6262
40.8289 154.13 15.4494
40.8628 174.594 16.6182
40.8968 155.555 15.7499
40.9307 185.597 16.897
40.9647 151.13 15.2571
40.9986 157.423 15.7134
41.0326 155.136 15.39331
41.0665 160.06 15.78596
41.1005 160.677 15.99301
41.1344 194.91 17.2673
41.1684 147.33 15.1699
41.2023 168.852 16.2399
41.23625 139.161 14.4891
41.2702 165.082 16.0787
41.3041 160.764 15.8694
41.3381 165.287 15.9144
41.372 139.586 14.8301
41.406 160.572 15.8586
41.4399 171.863 16.4107
41.4739 163.531 15.9616
41.5078 165.461 16.2249
41.5418 157.125 15.4823
41.5757 170.995 16.3475
41.6097 157.481 15.6393
41.6436 156.927 15.686
41.6776 138.322 14.5545
41.7115 143.023 15.0632
41.7455 158.595 15.751
41.7794 146.116 15.1185
41.8133 144.202 15.1177
41.8473 147.871 15.1683
41.8812 156.606 15.6146
41.9152 152.004 15.3481
41.9491 165.611 16.2869
41.9831 164.995 15.9207
42.017 173.289 18.0346
42.051 158.432 17.34335
42.0849 157.126 17.0374
42.1189 142.558 16.2934
42.1528 157.046 17.3452
42.1868 170.342 17.6325
42.2207 187.128 18.6101
42.2547 163.846 17.59969
42.2886 153.972 16.91695
42.32255 153.269 16.9392
42.3565 180.51 18.5512
42.3904 153.017 16.82677
42.4244 183.286 18.5442
42.4583 170.288 17.9954
42.4923 190.915 18.8338
42.5262 192.224 18.8636
42.5602 181.044 18.4943
42.5941 190.178 18.8551
42.6281 194.957 19.0683
42.662 208.299 19.8701
42.696 185.915 18.7464
42.7299 177.697 18.1465
42.7639 167.601 17.8336
42.7978 193.035 18.9038
42.8318 171.952 17.87457
42.8657 157.504 17.1365
42.8996 162.5 17.5838
42.9336 176.589 18.0391
42.9675 145.544 16.6575
43.0015 179.525 18.4902
43.0354 163.355 17.3344
43.0694 157.435 17.0901
43.1033 157.829 17.1809
43.1373 158.903 17.03242
43.1712 161.111 17.29992
43.2052 172.605 18.0884
43.2391 141.596 16.2176
43.2731 138.87 16.0924
43.307 150.234 16.78634
43.341 164.826 17.3945
43.3749 168.874 17.8325
43.40885 132.454 15.944
43.4428 143.495 16.4615
43.4767 150.39 16.7829
43.5107 166.35 17.7882
43.5446 176.739 18.1692
43.5786 151.3465 16.763
43.6125 142.657 16.3405
43.6465 163.909 17.5552
43.6804 165.376 17.3483
43.7144 142.713 16.4249
43.7483 155.168 17.2747
43.7823 156.689 16.94527
43.8162 172.361 18.0556
43.8502 167.657 17.82732
43.8841 159.975 17.1822
43.9181 154.619 17.1118
43.952 168.413 17.8133
43.9859 179.307 18.0246
44.0199 181.738 21.7049
44.0538 157.004 20.2966
44.0878 170.474 20.7982
44.1217 148.537 19.6056
44.1557 159.069 20.4616
44.1896 149.827 19.6869
44.2236 141.163 19.1514
44.2575 140.514 19.3623
44.2915 158.621 20.3495
44.3254 143.531 19.3463
44.3594 129.245 18.4734
44.3933 157.242 20.3472
44.4273 116.94 17.4047
44.4612 147.608 19.6996
44.49515 137.261 19.0469
44.5291 143.766 19.21604
44.563 144.654 19.4163
44.597 163.452 20.8295
44.6309 139.501 18.9962
44.6649 138.484 19.068
44.6988 152.346 20.1387
44.7328 146.38 19.4846
44.7667 128.519 18.3817
44.8007 157.609 20.4936
44.8346 162.309 20.3918
44.8686 185.497 21.9478
44.9025 144.476 19.5393
44.9365 166.427 20.6585
44.9704 171.158 21.0538
45.0044 175.92 21.476
45.0383 148.871 19.5259
45.0722 166.829 20.8258
45.1062 206.421 23.3789
45.1401 156.735 20.1107
45.1741 181.274 21.7417
45.208 160.684 20.5988
45.242 136.439 18.849
45.2759 135.768 18.7808
45.3099 150.237 19.8526
45.3438 161.506 20.5909
45.3778 140.423 18.9759
45.4117 135.643 18.799
45.4457 140.122 19.14
45.4796 149.506 19.6087
45.5136 157.314 20.3545
45.5475 138.97 19.085
45.58145 143.763 19.3133
45.6154 132.069 18.7021
45.6493 192.594 22.6251
45.6833 143.025 19.2253
45.7172 152.082 19.9898
45.7512 127.021 18.3702
45.7851 174.396 21.049
45.8191 134.09 18.6824
45.853 156.374 20.3748
45.887 164.237 20.5239
45.9209 126.488 18.0622
45.9549 178.188 21.59815
45.9888 158.573 20.2294
46.0228 187.153 26.8957
46.0567 153.367 24.5805
46.0907 131.212 22.5565
46.1246 152.474 24.3755
46.1585 137.049 23.1881
46.1925 133.07 22.6962
46.2264 162.32 25.0335
46.2604 172.345 25.9606
46.2943 199.114 27.5951
46.3283 151.412 23.9853
46.3622 135.823 22.9402
46.3962 144.934 23.8745
46.4301 138.124 23.0245
46.4641 160.645 24.8469
46.498 172.943 26.0276
46.532 144.1 23.4954
46.5659 165.838 25.3591
46.5999 139.473 23.4616
46.6338 136.793 22.9442
46.66775 107.838 20.3662
46.7017 153.195 24.5938
46.7356 154.457 24.2121
46.7696 163.948 25.1444
46.8035 136.223 23.0884
46.8375 143.534 23.2521
46.8714 134.073 22.8186
46.9054 191.363 27.3461
46.9393 140.928 23.1645
46.9733 93.5396 18.9054
47.0072 116.452 21.2727
47.0412 131.786 22.4849
47.0751 116.411 21.16668
47.1091 132.963 22.80119
47.143 159.959 24.8344
47.177 170.319 25.63756
47.2109 134.348 22.9404
47.2448 106.088 20.236
47.2788 150.201 24.0273
47.3127 116.04 21.2702
47.3467 109.158 20.7145
47.3806 149.365 23.809
47.4146 168.3 25.4529
47.4485 117.796 21.4713
47.4825 135.188 22.5879
47.5164 131.89 22.6612
47.5504 175.183 26.2374
47.5843 153.816 24.1827
47.6183 143.723 23.6853
47.6522 155.211 24.7594
47.6862 162.469 24.87987
47.7201 148.83 24.1005
47.75405 153.381 24.6496
47.788 192.028 27.0281
47.8219 137.264 22.96401
47.8559 115.889 21.141
47.8898 138.483 22.9982
47.9238 141.585 23.3055
47.9577 150.507 24.2041
47.9917 174.71 25.9119
48.0256 180.122 37.191
48.0596 110.495 29.531
48.0935 100.222 28.2917
48.1275 160.079 35.5003
48.1614 108.799 29.3238
48.1954 153.609 35.4025
48.2293 160.966 35.57
48.2633 101.423 28.6163
48.2972 142.694 34.1338
48.3311 110.619 29.3621
48.3651 121.636 30.9721
48.399 128.837 32.2092
48.433 164.503 35.6752
48.4669 126.4371 31.6009
48.5009 111.19 29.9259
48.5348 102.4952 28.1483
48.5688 133.093 32.3597
48.6027 125.924 31.7181
48.6367 160.253 35.2222
48.6706 173.34 36.9154
48.7046 137.264 33.225
48.7385 156.185 34.8691
48.7725 153.671 34.6317
48.8064 195.109 39.4969
48.84035 176.148 37.2278
48.8743 154.17 34.5793
48.9082 124.095 31.2301
48.9422 136.931 32.7874
48.9761 137.321 32.4861
49.0101 136.784 32.8233
49.044 68.524 23.16308
49.078 169.727 36.3912
49.1119 158.358 35.6069
49.1459 110.917 29.9702
49.1798 150.235 34.34162
49.2138 111.025 29.7164
49.2477 121.81 31.4511
49.2817 143.279 33.4683
49.3156 142.994 33.4055
49.3496 129.865 32.16141
49.3835 120.805 30.4305
49.4174 175.159 37.0893
49.4514 110.928 29.93234
49.4853 138.91 32.95552
49.5193 111.184 29.71507
49.5532 106.914 29.332
49.5872 132.74 32.4255
49.6211 103.422 28.5191
49.6551 150.236 34.6917
49.689 118.119 30.2832
49.723 137.321 32.82269
49.7569 111.789 29.8767
49.7909 158.693 35.1929
49.8248 81.708 24.9844
49.8588 147.937 33.9435
49.8927 135.11 32.5419
49.92665 166.785 35.7753
49.9606 140.979 33.229
49.9945 140.634 33.3867